{
    "resourceType": "Bundle",
    "id": "CoverageEligibilityRequestBundle",
    "meta": {
      "lastUpdated": "2021-08-13T17:11:00+05:30"
    },
    "identifier": {
      "system": "urn:ndhm:fhir:hcp(TBD)",
      "value": "urn:uuid:0c3151bd-1cbf-4d64-b04d-cd9187a4c6e0"
    },
    "type": "document",
    "timestamp": "2021-08-13T17:11:00+05:30",
    "entry": [
      {
        "fullUrl": "http://TODO.fhir.tbd-ndhm-gov-website.in/open/Composition/180f219f-97a8-486d-99d9-ed631fe4fc57",
        "resource": {
          "resourceType": "Composition",
          "id": "180f219f-97a8-486d-99d9-ed631fe4fc57",
          "meta": {
            "lastUpdated": "2021-08-13T17:11:00+05:30"
          },
          "text": {
            "status": "generated",
            "div": "<div xmlns=\"http://www.w3.org/1999/xhtml\"><p>Eligibility status check</p></div>"
          },
          "status": "final",
          "type": {
            "coding": [
              {
                "system": "http://TODO.ndhm-valueset-gov.in",
                "code": "12345"
              }
            ],
            "text": "Coverage Eligibility Request from provider TMS to HCP Gateway."
          },
          "subject": {
            "reference": "Patient/examplePatient",
            "display": "Patient's Name"
          },
          "encounter": {
            "reference": "http://TODO.fhir.tbd-ndhm-gov-website.in/open/Encounter/doc-example"
          },
          "date": "2021-08-13T17:11:00+05:30",
          "author": [
            {
              "reference": "Practitioner/examplePractitioner",
              "display": "Doctor's Name"
            }
          ],
          "title": "Coverage Eligibility Request Bundle",
          "confidentiality": "N",
          "section": [
            {
              "title": "Coverage Eligibility Request",
              "code": {
                "coding": [
                  {
                    "system": "http://TODO.ndhm-valueset-gov.in",
                    "code": "23456",
                    "display": "Coverage Eligibility Request"
                  }
                ]
              },
              "text": {
                "status": "additional",
                "div": "<div xmlns=\"http://www.w3.org/1999/xhtml\"><p>Elgibility status check for a patient.</p></div>"
              },
              "entry": [
                {
                  "reference": "http://hl7.org/fhir/StructureDefinition/CoverageEligibilityRequest"
                }
              ]
            }
          ]
        }
      },
      {
        "fullUrl": "http://TODO.fhir.tbd-ndhm-gov-website.in/open/Practitioner/example",
        "resource": {
            "resourceType": "Practitioner",
            "id": "examplePractitioner",
            "text": {
              "status": "generated",
              "div": "<div xmlns=\"http://www.w3.org/1999/xhtml\">\n      <p>Dr Example Practitioner</p>\n    </div>"
            },
            "identifier": [
              {
                "system": "http://www.TODO-ndhm-practitioner-registry-gov.in/practitioners",
                "value": "23"
              }
            ],
            "active": true,
            "name": [
                {
                  "family": "Practitioner",
                  "given": [
                    "Example"
                  ],
                  "prefix": [
                    "Dr"
                  ]
                }
              ],
            "qualification": [
              {
                "identifier": [
                  {
                    "system": "http://example.org/UniversityIdentifier",
                    "value": "12345"
                  }
                ],
                "code": {
                  "coding": [
                    {
                      "system": "http://terminology.hl7.org/CodeSystem/v2-0360/2.7",
                      "code": "BS",
                      "display": "Bachelor of Science"
                    }
                  ],
                  "text": "Bachelor of Science"
                },
                "period": {
                  "start": "1995"
                },
                "issuer": {
                  "display": "Example University"
                }
              }
            ]
          }
      },
      {
        "resourceType": "Patient",
        "id": "examplePatient",
        "text": {
          "status": "generated",
          "div": "<div xmlns=\"http://www.w3.org/1999/xhtml\"><p>Patient's Display Text</p></div>"
        },
        "identifier": [
          {
            "use": "usual",
            "type": {
              "coding": [
                {
                  "system": "http://terminology.hl7.org/CodeSystem/v2-0203",
                  "code": "MR"
                }
              ]
            },
            "system": "http://TODO-some-patient-repository.com",
            "value": "12345",
            "period": {
              "start": "2001-05-06"
            },
            "assigner": {
              "display": "ABC Hospital"
            }
          }
        ],
        "active": true,
        "name": [
          {
            "use": "official",
            "family": "ExampleFamily",
            "given": [
              "Given1",
              "Given2"
            ]
          },
          {
            "use": "usual",
            "given": [
              "Given1"
            ]
          },
          {
            "use": "maiden",
            "family": "MaidenFamily",
            "given": [
              "Maiden1",
              "Maiden2"
            ],
            "period": {
              "end": "2002"
            }
          }
        ],
        "telecom": [
          {
            "use": "home"
          },
          {
            "system": "phone",
            "value": "999-555-6473",
            "use": "work",
            "rank": 1
          }
        ],
        "gender": "male",
        "birthDate": "1974-12-25",
        "_birthDate": {
          "extension": [
            {
              "url": "http://hl7.org/fhir/StructureDefinition/patient-birthTime",
              "valueDateTime": "1974-12-25T14:35:45-05:00"
            }
          ]
        },
        "deceasedBoolean": false,
        "address": [
          {
            "use": "home",
            "type": "both",
            "text": "123 Anna Salai, Chennai-1",
            "line": [
              "123 Anna Salai"
            ],
            "city": "Chennai",
            "district": "Chennai",
            "state": "TN",
            "postalCode": "600001",
            "period": {
              "start": "1974-12-25"
            }
          }
        ],
        "managingOrganization": {
          "reference": "Organization/1"
        }
      }
    ],
    "signature": {
      "type": [
        {
          "system": "urn:iso-astm:E1762-95:2013",
          "code": "1.2.840.10065.1.12.1.1",
          "display": "Author's Signature"
        }
      ],
      "when": "2021-08-13T17:11:00+05:30",
      "who": {
        "reference": "Device/software"
      },
      "onBehalfOf": {
        "reference": "Organization/example"
      },
      "sigFormat": "image/jpg",
      "data": "EncodedJPEGLoooooongString"
    }
  }